{
  "resourceType" : "Bundle",
  "entry" : [
    {
      "id" : "@create-device",
      "category" : [{
        "term" : "sound",
        "label" : "noise",
        "scheme" : "http://hl7.org/fhir/tag"
      }],
      "content" : {
        "resourceType": "Device",
        "type": {
          "coding": [
            {
              "system": "http://snomed.info/sct",
              "code": "86184003",
              "display": "Electrocardiographic monitor and recorder"
            }
          ],
          "text": "ECG"
        }
      }
    },
    {
      "id" : "@update-alert",
      "link" : [{
        "rel" : "self",
        "href" : "@update-vid-alert"
      }],
      "category" : [{
        "term" : "music",
        "label" : "silence",
        "scheme" : "http://hl7.org/fhir/tag"
      }],
      "content" : {
        "resourceType": "Alert",
        "status": "active",
        "subject": {
          "reference": "@create-device",
          "display": "Peter Patient"
        },
        "note": "current-note",
        "author": {
          "reference": "@delete-device",
          "display": "Nancy Nurse"
        }
      }
    },
    {
      "id" : "@delete-device",
      "deleted" : "2012-05-29T23:45:32+00:00"
    }
  ]
}
